tau_s,accel_x_adev_si,accel_y_adev_si,accel_z_adev_si,gyro_x_adev_si,gyro_y_adev_si,gyro_z_adev_si
1.000000000000000021e-02,1.289730263097639378e-02,1.318886416619931626e-02,1.875653475073753990e-02,4.641101373929093325e-04,5.154567156597702343e-04,5.552936177381164080e-04
2.000000000000000042e-02,9.628971237731766622e-03,9.812640763912026595e-03,1.398147552206046619e-02,3.961471830213988857e-04,4.370912848649309264e-04,4.794758513651366325e-04
2.999999999999999889e-02,8.031223433777948117e-03,8.161116386919475135e-03,1.163246372748731779e-02,3.436254646707326819e-04,3.782508295520809502e-04,4.080004363967565644e-04
4.000000000000000083e-02,7.034929971012362192e-03,7.131560531219769024e-03,1.017034207182237332e-02,3.063527010116668162e-04,3.368305095567830925e-04,3.616333305256024238e-04
5.000000000000000278e-02,6.330566330769525629e-03,6.411157632601576818e-03,9.147666003784546071e-03,2.787555635145952263e-04,3.061907099372000317e-04,3.295345898320026093e-04
5.999999999999999778e-02,5.792577691016636415e-03,5.873049194601535385e-03,8.378205710863834491e-03,2.574591453481504832e-04,2.825162376982663062e-04,3.039247939146790195e-04
7.000000000000000666e-02,5.364627177877541973e-03,5.450106168400083509e-03,7.773537168089377121e-03,2.404866931104311515e-04,2.635072253079820252e-04,2.826046251599114616e-04
8.999999999999999667e-02,4.736209146348035158e-03,4.821743937110601654e-03,6.875268625122801965e-03,2.148288045104000004e-04,2.347698528471892066e-04,2.517302040801994395e-04
1.000000000000000056e-01,4.498618735122058079e-03,4.579871455273589777e-03,6.529797429650132691e-03,2.047906002806541457e-04,2.235567041498581309e-04,2.394219017628950656e-04
1.199999999999999956e-01,4.115437995174560382e-03,4.189683010069264468e-03,5.971480880311591348e-03,1.883021674225792189e-04,2.052092773612202337e-04,2.194943040521214620e-04
1.400000000000000133e-01,3.821379706755076953e-03,3.886063458704072052e-03,5.536001413301727507e-03,1.752242612707661184e-04,1.908172135193276521e-04,2.038739427331125805e-04
1.600000000000000033e-01,3.580528852259804318e-03,3.641041460234297530e-03,5.184472651632843904e-03,1.645610874569121266e-04,1.791478384473922691e-04,1.912167534298146515e-04
1.900000000000000022e-01,3.282372860768052302e-03,3.347688728025524987e-03,4.763042448764295139e-03,1.517966192724885626e-04,1.652126937244399567e-04,1.760024168483446873e-04
2.200000000000000011e-01,3.052184287046129808e-03,3.116487136394700905e-03,4.430690295422630952e-03,1.417204212333702520e-04,1.542111747762928760e-04,1.638816548698946384e-04
2.500000000000000000e-01,2.867744601757548500e-03,2.928375979833358535e-03,4.159744065083602511e-03,1.334760315205693517e-04,1.452640412383490905e-04,1.539667028825705429e-04
2.899999999999999800e-01,2.662382875575501455e-03,2.722883643695755279e-03,3.864957582624161617e-03,1.244837353911556522e-04,1.355446241400167439e-04,1.432006849160216417e-04
3.400000000000000244e-01,2.461959542461909269e-03,2.518625876877413159e-03,3.571902466344267953e-03,1.156291548350471684e-04,1.258542781023773405e-04,1.324691278079249913e-04
4.000000000000000222e-01,2.272762205733530692e-03,2.326141030674900440e-03,3.294823982367182068e-03,1.071365248108168056e-04,1.166773310317991617e-04,1.223283739929363091e-04
4.600000000000000200e-01,2.122347177209174974e-03,2.172694601460501817e-03,3.075375250196956019e-03,1.003533002817989306e-04,1.093452005002542346e-04,1.142225329659170372e-04
5.300000000000000266e-01,1.978068828254996633e-03,2.028171407327008548e-03,2.866444276553490288e-03,9.400724002429758006e-05,1.024024456664346643e-04,1.065211752659688443e-04
6.199999999999999956e-01,1.831900150850697840e-03,1.881613516077533434e-03,2.651051721573444413e-03,8.755188361207289025e-05,9.531846429952162483e-05,9.858947916568166158e-05
7.199999999999999734e-01,1.703406888995863226e-03,1.752452320320581521e-03,2.461404608439649293e-03,8.179625484036594652e-05,8.900730337951726480e-05,9.154048644066226754e-05
8.300000000000000711e-01,1.590051989600075807e-03,1.637874856472895961e-03,2.292918520878047418e-03,7.681075291277175221e-05,8.346598907355191627e-05,8.533281962177007376e-05
9.699999999999999734e-01,1.475891802208605542e-03,1.521179058667830467e-03,2.120628905371036658e-03,7.180236813718734806e-05,7.789929004624560082e-05,7.901917288132132954e-05
1.120000000000000107e+00,1.377101757045977922e-03,1.420573298551821347e-03,1.973709925682039408e-03,6.754876966386600399e-05,7.317560732021838354e-05,7.358458667965118180e-05
1.300000000000000044e+00,1.281970181745744003e-03,1.323275202097876036e-03,1.832780206678301859e-03,6.345568605985423948e-05,6.866158935185559227e-05,6.837922430902193560e-05
1.510000000000000009e+00,1.192964502071180337e-03,1.232752114002467776e-03,1.701718236997981854e-03,5.972469576322506860e-05,6.456945126314662627e-05,6.354949614135004714e-05
1.750000000000000000e+00,1.112215807212348345e-03,1.149767166461548428e-03,1.581502131714990949e-03,5.637516560180294941e-05,6.083526626787183559e-05,5.915563388395891171e-05
2.030000000000000249e+00,1.037054426261144364e-03,1.071368945684189004e-03,1.469974782146482974e-03,5.331008531296372764e-05,5.732533648837419635e-05,5.503664229916810922e-05
2.350000000000000089e+00,9.682471229073537702e-04,9.996620938526273956e-04,1.369852864053450713e-03,5.061074858389248341e-05,5.417635597965889495e-05,5.124675002396305868e-05
2.729999999999999982e+00,9.028840082836486801e-04,9.323302551989611246e-04,1.273626389611459339e-03,4.815577692032945763e-05,5.125676277266028621e-05,4.762055430670966482e-05
3.160000000000000142e+00,8.438504126263206371e-04,8.721281977831135722e-04,1.187153258876282643e-03,4.601323124208569581e-05,4.868912047465612420e-05,4.435358133758603454e-05
3.660000000000000142e+00,7.877099184569427053e-04,8.167932919381380632e-04,1.108466466591092811e-03,4.413569869005230350e-05,4.638459228017606392e-05,4.131005526710786869e-05
4.250000000000000000e+00,7.340066681606396016e-04,7.657271723259192770e-04,1.034268867556096053e-03,4.247096468589131428e-05,4.431681850912729795e-05,3.848202146578544986e-05
4.919999999999999929e+00,6.844596872180691268e-04,7.202273541732682289e-04,9.670949555276386151e-04,4.102099236674579513e-05,4.246923565085604309e-05,3.598087278832551018e-05
5.709999999999999964e+00,6.371036364859463882e-04,6.774199625358767003e-04,9.049806966220210261e-04,3.971094227728712587e-05,4.073489544298999307e-05,3.363960288228482653e-05
6.620000000000000107e+00,5.944314214462121044e-04,6.385423585229378727e-04,8.486403199105564937e-04,3.852286796074739128e-05,3.914358334218996307e-05,3.145646240719726801e-05
7.669999999999999929e+00,5.562243316664622177e-04,6.039138748852078756e-04,7.972377911374682645e-04,3.743973465004214681e-05,3.769729510683718252e-05,2.945769327895021131e-05
8.890000000000000568e+00,5.214759612034060169e-04,5.722979296189645293e-04,7.493537926634368613e-04,3.644040671428861432e-05,3.639021328454804520e-05,2.754766569474716858e-05
1.030000000000000071e+01,4.909495045863519411e-04,5.422195892363774984e-04,7.030280359917944703e-04,3.555078381241965604e-05,3.525930873326824170e-05,2.575356509797074902e-05
1.193999999999999950e+01,4.635296274439501627e-04,5.138713379635865327e-04,6.596140113669127182e-04,3.482691746517556320e-05,3.425318071286569777e-05,2.403143577607312538e-05
1.383999999999999986e+01,4.374801615258126016e-04,4.863703621947554367e-04,6.210234503132211264e-04,3.423852422438519402e-05,3.337964309104482610e-05,2.244926885752414266e-05
1.605000000000000071e+01,4.136011295650082308e-04,4.596839151503101430e-04,5.841830576173772868e-04,3.377646793806151200e-05,3.260475638835150399e-05,2.105936392240824671e-05
1.860000000000000142e+01,3.922122246294757917e-04,4.357763936588506036e-04,5.516020983133621122e-04,3.341222437770596793e-05,3.188353088653479901e-05,1.982392057683196438e-05
2.155999999999999872e+01,3.715423368389130865e-04,4.146406929266373753e-04,5.253496560474402643e-04,3.309566539617898656e-05,3.128265774751222758e-05,1.871278926991782430e-05
2.499000000000000199e+01,3.515262649706922603e-04,3.960932545247117221e-04,5.019242561846099307e-04,3.281813749163971298e-05,3.084407664353707574e-05,1.771538395415945719e-05
2.896999999999999886e+01,3.335352730927444199e-04,3.794679846801932090e-04,4.809144581465223307e-04,3.267486177416384238e-05,3.054270416715520884e-05,1.679118232082379511e-05
3.357999999999999829e+01,3.180852821015340962e-04,3.634484151247684841e-04,4.646391881716147726e-04,3.268300794939493867e-05,3.033132787645955892e-05,1.593076550173809023e-05
3.892000000000000171e+01,3.046328326290042026e-04,3.478251268009901836e-04,4.523996901147477674e-04,3.284822324524745767e-05,3.015959644705639076e-05,1.513725782211910003e-05
4.510999999999999943e+01,2.932088547115977643e-04,3.328899836955186544e-04,4.429896000926393951e-04,3.315280946367895763e-05,2.997050093860077023e-05,1.439067091982801302e-05
5.228999999999999915e+01,2.830411894110904255e-04,3.189102528249782866e-04,4.363134647557190661e-04,3.354881564381346061e-05,2.974709036703535904e-05,1.371878209006396357e-05
6.060000000000000142e+01,2.743998424397273931e-04,3.056379057010265884e-04,4.326190430741491460e-04,3.406415388300930593e-05,2.951042825864006827e-05,1.309919898765544226e-05
7.025000000000000000e+01,2.669228816664292667e-04,2.943070632734842164e-04,4.314633521633411714e-04,3.478518597132463670e-05,2.933473633192495520e-05,1.251046766835244611e-05
8.142000000000000171e+01,2.610397741126031399e-04,2.832481870332793764e-04,4.332009172623702930e-04,3.578480455983572094e-05,2.929058651307968640e-05,1.199352614686736026e-05
9.437000000000000455e+01,2.583298836041451603e-04,2.710983289110290538e-04,4.382169415407212096e-04,3.711514835116234778e-05,2.937714391506494082e-05,1.162943655065336205e-05
1.093900000000000006e+02,2.575006028281921202e-04,2.596193097533592425e-04,4.466277558842379107e-04,3.868754989643642770e-05,2.958682971558277699e-05,1.134806236485494094e-05
1.267900000000000063e+02,2.583165523749402469e-04,2.490332782933453036e-04,4.588942450112232251e-04,4.035468674800390298e-05,2.992247304369978470e-05,1.117600416601940837e-05
1.469600000000000080e+02,2.607071249498496709e-04,2.382381884705994971e-04,4.756791903510093796e-04,4.201869631611632167e-05,3.040696457157046051e-05,1.112591182651039239e-05
1.703400000000000034e+02,2.641785245373456372e-04,2.291125005565238675e-04,4.962467598460779767e-04,4.365604462211888318e-05,3.103393305515057073e-05,1.109980311681279576e-05
1.974300000000000068e+02,2.674768866974128125e-04,2.237111420207627986e-04,5.193099783890388647e-04,4.537579430150591469e-05,3.169931365441188721e-05,1.106463768397222391e-05
2.288400000000000034e+02,2.709773866953677206e-04,2.214315542896015644e-04,5.444865753682767359e-04,4.730288799193678630e-05,3.231390850564289520e-05,1.101637792896270935e-05
2.652400000000000091e+02,2.755826357369911181e-04,2.205404193624732948e-04,5.707101867977907661e-04,4.956207356021005825e-05,3.283451224487021666e-05,1.098874651377862994e-05
3.074399999999999977e+02,2.821482910929836167e-04,2.217053903062898303e-04,5.983013160402347571e-04,5.225535853977564157e-05,3.324452042547488629e-05,1.096706432174944126e-05
3.563400000000000318e+02,2.913333808795480180e-04,2.227865226081708681e-04,6.292580885980513655e-04,5.532881164695600086e-05,3.357137599051229873e-05,1.096737353200978697e-05
4.130300000000000296e+02,3.040555818425725101e-04,2.215020439283612956e-04,6.657475963768964963e-04,5.862584334163321040e-05,3.383406180798646497e-05,1.101364652942700837e-05
4.787300000000000182e+02,3.214448187908248490e-04,2.175692457578134629e-04,7.099335860733405144e-04,6.209148822149045620e-05,3.413035093294761863e-05,1.109107649190084066e-05
5.548799999999999955e+02,3.426401733939632628e-04,2.113858295777080380e-04,7.627073784555382305e-04,6.581086066517013620e-05,3.463836596345396787e-05,1.123612349222342608e-05
6.431499999999999773e+02,3.666150814666759472e-04,2.035665340273664584e-04,8.232546739168404527e-04,6.989845773406988636e-05,3.538213909366069655e-05,1.147798913411952124e-05
7.454600000000000364e+02,3.940336705639154434e-04,1.967395232054534914e-04,8.940616992554219341e-04,7.468100161822771306e-05,3.669261697081956742e-05,1.175396818640123361e-05
8.640500000000000682e+02,4.246394795740981369e-04,1.936196731581753510e-04,9.740212931333859904e-04,8.047700663718812249e-05,3.884798956047055558e-05,1.210399502543094381e-05
1.001490000000000009e+03,4.579401446478512561e-04,1.937529526287366073e-04,1.062423182427447554e-03,8.705919163517011569e-05,4.161660495743691726e-05,1.253953572233863674e-05
1.160799999999999955e+03,4.948301430424304707e-04,1.945983933283500157e-04,1.164196750605468560e-03,9.411754195414327230e-05,4.494745818926317081e-05,1.301316510768469309e-05
1.345460000000000036e+03,5.359237234585024134e-04,1.955603390216008634e-04,1.279184547554784550e-03,1.016456419073290149e-04,4.877519777151176610e-05,1.362115256679760372e-05
1.559480000000000018e+03,5.834264897893118177e-04,1.952622429956908179e-04,1.405552456657844585e-03,1.095384027993556584e-04,5.294848587783929360e-05,1.445350582185764757e-05
1.807559999999999945e+03,6.399436260150008189e-04,1.925744752874837843e-04,1.545627164803270361e-03,1.180655127822101825e-04,5.755893841208134526e-05,1.549241033439558186e-05
2.095090000000000146e+03,7.097459038792810083e-04,1.897693171612939509e-04,1.702927856818858181e-03,1.276795963835979509e-04,6.247040575259900353e-05,1.673788814832854891e-05
2.428369999999999891e+03,7.951041016682146821e-04,1.846813319558080998e-04,1.879337742916373406e-03,1.387792542464776654e-04,6.757499008672640441e-05,1.827276378122653854e-05
2.814659999999999854e+03,8.963371606716655140e-04,1.747993441784474115e-04,2.085227755811742013e-03,1.519922003555959557e-04,7.266924827168639049e-05,2.007744273363391792e-05
3.262389999999999873e+03,1.005093015347420038e-03,1.619850923236554633e-04,2.315782797219846732e-03,1.673393356850197031e-04,7.722312429523292207e-05,2.209753819427368146e-05
3.781349999999999909e+03,1.117252046147127137e-03,1.458042342513605528e-04,2.558358585301062551e-03,1.832272727529054115e-04,8.092332469827790591e-05,2.431629735424491106e-05
4.382869999999999891e+03,1.229799380845079167e-03,1.339531633991798709e-04,2.807907997450384118e-03,1.992423047835940886e-04,8.417737840569645687e-05,2.672807509071832037e-05
5.080069999999999709e+03,1.347408095926634283e-03,1.327902315385889550e-04,3.052022182279216182e-03,2.140657336277200875e-04,8.798420047097603154e-05,2.958979410981501905e-05
